SID,Run,Trial,RawOnset (ms),TROnset,Go/Stop,Stop,Z (s),Delay (s),Response,RT (s),Code,Duration (s),Jitter (ms),Mean (s),Trial Duration (s),Onset Difference (s),Trial Duration (ms),Onset Difference (ms),Latency (ms),,Block,Expected Block Duration (ms),Actual Block Duration (ms),Block Duration Difference (ms),Calculated By-Trial Latency (ms),Total Outside cycle() Latency (ms),Outside cycle() Latency Per Trial (ms)
20130820T151145,1,1,5772.0893,2.3088,Stop,1,0.35,0.25,,,1,2.3664,3002.2946,NaN,5.3686946,5.4255815,5368.6946,5425.5815,56.8869,,1,218000,225776.9216,7776.9216,832.2939,6944.6277,138.892554
20130820T151145,1,2,11197.6708,4.4791,Go,0,,,,,4,2.2165,2650.3973,NaN,4.8668973,4.8941065,4866.8973,4894.1065,27.2092,,2,218000,225621.797,7621.797,779.8098,6841.9872,136.839744
20130820T151145,1,3,16091.7773,6.4367,Stop,1,0.36667,0.26667,,,1,2.3831,1983.6631,NaN,4.3667631,4.3738274,4366.7631,4373.8274,7.0643,,3,218000,225829.6501,7829.6501,987.9772,6841.6729,136.833458
20130820T151145,1,4,20465.6047,8.1862,Go,0,,,,,4,2.2165,1650.3201,NaN,3.8668201,3.8830465,3866.8201,3883.0465,16.2264,,4,218000,225622.9436,7622.9436,784.9489,6837.9947,136.759894
20130820T151145,1,5,24348.6512,9.7395,Go,0,,,,,4,2.2165,2650.3152,NaN,4.8668152,4.8829492,4866.8152,4882.9492,16.134,,,,,,,,
20130820T151145,1,6,29231.6004,11.6926,Go,0,,,,,4,2.2165,2650.3211,NaN,4.8668211,4.8829671,4866.8211,4882.9671,16.146,,,,,,,,
20130820T151145,1,7,34114.5675,13.6458,Go,0,,,,,4,2.2165,2150.5129,NaN,4.3670129,4.3831354,4367.0129,4383.1354,16.1225,,,,,,,,
20130820T151145,1,8,38497.7029,15.3991,Go,0,,,,,4,2.2165,2650.3385,NaN,4.8668385,4.8869594,4866.8385,4886.9594,20.1209,,,,,,,,
20130820T151145,1,9,43384.6623,17.3539,Stop,1,0.33333,0.23333,,,1,2.3498,2516.982,NaN,4.866782,4.8794971,4866.782,4879.4971,12.7151,,,,,,,,
20130820T151145,1,10,48264.1594,19.3057,Stop,1,0.33333,0.23333,,,1,2.3497,1516.9847,NaN,3.8666847,3.8821146,3866.6847,3882.1146,15.4299,,,,,,,,
20130820T151145,1,11,52146.274,20.8585,Go,0,,,,,4,2.2165,2150.3331,NaN,4.3668331,4.3830983,4366.8331,4383.0983,16.2652,,,,,,,,
20130820T151145,1,12,56529.3723,22.6117,Go,0,,,,,4,2.2165,1650.3671,NaN,3.8668671,3.8830389,3866.8671,3883.0389,16.1718,,,,,,,,
20130820T151145,1,13,60412.4112,24.165,Go,0,,,,,4,2.2164,1650.3195,NaN,3.8667195,3.8829588,3866.7195,3882.9588,16.2393,,,,,,,,
20130820T151145,1,14,64295.37,25.7181,Go,0,,,,,4,2.2165,2150.3465,NaN,4.3668465,4.3830447,4366.8465,4383.0447,16.1982,,,,,,,,
20130820T151145,1,15,68678.4147,27.4714,Go,0,,,,,4,2.2164,2150.3157,NaN,4.3667157,4.3828844,4366.7157,4382.8844,16.1687,,,,,,,,
20130820T151145,1,16,73061.2991,29.2245,Go,0,,,,,4,2.2164,1650.3165,NaN,3.8667165,3.8830088,3866.7165,3883.0088,16.2923,,,,,,,,
20130820T151145,1,17,76944.3079,30.7777,Go,0,,,,,4,2.2165,1650.3241,NaN,3.8668241,3.8830687,3866.8241,3883.0687,16.2446,,,,,,,,
20130820T151145,1,18,80827.3766,32.331,Go,0,,,,,4,2.2164,2650.3162,NaN,4.8667162,4.8835865,4866.7162,4883.5865,16.8703,,,,,,,,
20130820T151145,1,19,85710.9631,34.2844,Stop,1,0.36667,0.26667,,,1,2.3831,2483.6876,NaN,4.8667876,4.8824452,4866.7876,4882.4452,15.6576,,,,,,,,
20130820T151145,1,20,90593.4083,36.2374,Go,0,,,,,4,2.2165,2150.4051,NaN,4.3669051,4.3829861,4366.9051,4382.9861,16.081,,,,,,,,
20130820T151145,1,21,94976.3944,37.9906,Go,0,,,,,4,2.2165,2650.4316,NaN,4.8669316,4.8835273,4866.9316,4883.5273,16.5957,,,,,,,,
20130820T151145,1,22,99859.9217,39.944,Stop,1,0.36667,0.26667,,,1,2.3831,1983.6644,NaN,4.3667644,4.3823133,4366.7644,4382.3133,15.5489,,,,,,,,
20130820T151145,1,23,104242.235,41.6969,Go,0,,,,,4,2.2165,3150.4532,NaN,5.3669532,5.3830199,5366.9532,5383.0199,16.0667,,,,,,,,
20130820T151145,1,24,109625.2549,43.8501,Go,0,,,,,4,2.2164,2650.3211,NaN,4.8667211,4.8827773,4866.7211,4882.7773,16.0562,,,,,,,,
20130820T151145,1,25,114508.0322,45.8032,Go,0,,,,,4,2.2165,1650.4107,NaN,3.8669107,3.8836299,3866.9107,3883.6299,16.7192,,,,,,,,
20130820T151145,1,26,118391.6621,47.3567,Stop,1,0.33333,0.23333,,,1,2.3498,3017.0602,NaN,5.3668602,5.3824507,5366.8602,5382.4507,15.5905,,,,,,,,
20130820T151145,1,27,123774.1128,49.5096,Go,0,,,,,4,2.2164,1650.3231,NaN,3.8667231,3.882734,3866.7231,3882.734,16.0109,,,,,,,,
20130820T151145,1,28,127656.8468,51.0627,Go,0,,,,,4,2.2165,1650.3248,NaN,3.8668248,3.883225,3866.8248,3883.225,16.4002,,,,,,,,
20130820T151145,1,29,131540.0718,52.616,Go,0,,,,,4,2.2164,1650.3155,NaN,3.8667155,3.8835312,3866.7155,3883.5312,16.8157,,,,,,,,
20130820T151145,1,30,135423.603,54.1694,Go,0,,,,,4,2.2165,2650.3916,NaN,4.8668916,4.8826115,4866.8916,4882.6115,15.7199,,,,,,,,
20130820T151145,1,31,140306.2145,56.1225,Go,0,,,,,4,2.2165,2150.4454,NaN,4.3669454,4.3828099,4366.9454,4382.8099,15.8645,,,,,,,,
20130820T151145,1,32,144689.0244,57.8756,Go,0,,,,,4,2.2164,2650.339,NaN,4.866739,4.8828724,4866.739,4882.8724,16.1334,,,,,,,,
20130820T151145,1,33,149571.8968,59.8288,Go,0,,,,,4,2.2164,2150.4342,NaN,4.3668342,4.3834195,4366.8342,4383.4195,16.5853,,,,,,,,
20130820T151145,1,34,153955.3163,61.5821,Go,0,,,,,4,2.2165,2150.318,NaN,4.366818,4.3824597,4366.818,4382.4597,15.6417,,,,,,,,
20130820T151145,1,35,158337.776,63.3351,Go,0,,,,,4,2.2165,2650.3301,NaN,4.8668301,4.8829528,4866.8301,4882.9528,16.1227,,,,,,,,
20130820T151145,1,36,163220.7288,65.2883,Go,0,,,,,4,2.2164,3150.3173,NaN,5.3667173,5.3829102,5366.7173,5382.9102,16.1929,,,,,,,,
20130820T151145,1,37,168603.639,67.4415,Go,0,,,,,4,2.2165,2150.3804,NaN,4.3668804,4.3837284,4366.8804,4383.7284,16.848,,,,,,,,
20130820T151145,1,38,172987.3674,69.1949,Stop,1,0.35,0.25,,,1,2.3664,1500.3236,NaN,3.8667236,3.8821241,3866.7236,3882.1241,15.4005,,,,,,,,
20130820T151145,1,39,176869.4915,70.7478,Go,0,,,,,4,2.2164,2150.32,NaN,4.36672,4.3830378,4366.72,4383.0378,16.3178,,,,,,,,
20130820T151145,1,40,181252.5293,72.501,Go,0,,,,,4,2.2165,1650.4336,NaN,3.8669336,3.883126,3866.9336,3883.126,16.1924,,,,,,,,
20130820T151145,1,41,185135.6553,74.0543,Go,0,,,,,4,2.2165,3150.3299,NaN,5.3668299,5.3835403,5366.8299,5383.5403,16.7104,,,,,,,,
20130820T151145,1,42,190519.1956,76.2077,Stop,1,0.36667,0.26667,,,1,2.3831,2483.642,NaN,4.866742,4.8821767,4866.742,4882.1767,15.4347,,,,,,,,
20130820T151145,1,43,195401.3723,78.1605,Go,0,,,,,4,2.3165,2152.4815,NaN,4.4689815,4.4851597,4468.9815,4485.1597,16.1782,,,,,,,,
20130820T151145,1,44,199886.532,79.9546,Go,0,,,,,4,2.2164,1650.3135,NaN,3.8667135,3.8807648,3866.7135,3880.7648,14.0513,,,,,,,,
20130820T151145,1,45,203767.2968,81.5069,Go,0,,,,,4,2.2164,2650.3218,NaN,4.8667218,4.8830945,4866.7218,4883.0945,16.3727,,,,,,,,
20130820T151145,1,46,208650.3913,83.4602,Go,0,,,,,4,2.2165,2650.3175,NaN,4.8668175,4.8828965,4866.8175,4882.8965,16.079,,,,,,,,
20130820T151145,1,47,213533.2878,85.4133,Go,0,,,,,4,2.2165,2150.361,NaN,4.366861,4.3836125,4366.861,4383.6125,16.7515,,,,,,,,
20130820T151145,1,48,217916.9003,87.1668,Stop,1,0.36667,0.26667,,,1,2.3831,2483.6785,NaN,4.8667785,4.8823327,4866.7785,4882.3327,15.5542,,,,,,,,
20130820T151145,1,49,222799.233,89.1197,Go,0,,,,,4,2.2165,2650.3546,NaN,4.8668546,4.8829492,4866.8546,4882.9492,16.0946,,,,,,,,
20130820T151145,1,50,227682.1822,91.0729,Go,0,,,,,4,2.2165,1650.3287,NaN,3.8668287,,3866.8287,,,,,,,,,,
20130820T151145,2,1,5745.5293,2.2982,Go,0,,,,,4,2.2165,3150.3448,NaN,5.3668448,5.372772,5366.8448,5372.772,5.9272,,,,,,,,
20130820T151145,2,2,11118.3013,4.4473,Go,0,,,,,4,2.2165,2650.3346,NaN,4.8668346,4.8825181,4866.8346,4882.5181,15.6835,,,,,,,,
20130820T151145,2,3,16000.8194,6.4003,Go,0,,,,,4,2.2165,2150.4584,NaN,4.3669584,4.3837495,4366.9584,4383.7495,16.7911,,,,,,,,
20130820T151145,2,4,20384.5689,8.1538,Stop,1,0.33333,0.23333,,,1,2.3498,1517.04,NaN,3.86684,3.882198,3866.84,3882.198,15.358,,,,,,,,
20130820T151145,2,5,24266.7669,9.7067,Go,0,,,,,4,2.2164,2650.3731,NaN,4.8667731,4.8829929,4866.7731,4882.9929,16.2198,,,,,,,,
20130820T151145,2,6,29149.7598,11.6599,Go,0,,,,,4,2.2165,2650.4761,NaN,4.8669761,4.8830743,4866.9761,4883.0743,16.0982,,,,,,,,
20130820T151145,2,7,34032.8341,13.6131,Go,0,,,,,4,2.2165,2150.4654,NaN,4.3669654,4.3834903,4366.9654,4383.4903,16.5249,,,,,,,,
20130820T151145,2,8,38416.3244,15.3665,Stop,1,0.35,0.25,,,1,2.3664,2500.3163,NaN,4.8667163,4.8821507,4866.7163,4882.1507,15.4344,,,,,,,,
20130820T151145,2,9,43298.4751,17.3194,Go,0,,,,,4,2.2164,2650.3185,NaN,4.8667185,4.8830306,4866.7185,4883.0306,16.3121,,,,,,,,
20130820T151145,2,10,48181.5057,19.2726,Go,0,,,,,4,2.2164,1650.3251,NaN,3.8667251,3.8835308,3866.7251,3883.5308,16.8057,,,,,,,,
20130820T151145,2,11,52065.0365,20.826,Stop,1,0.35,0.25,,,1,2.3665,2000.3395,NaN,4.3668395,4.3824962,4366.8395,4382.4962,15.6567,,,,,,,,
20130820T151145,2,12,56447.5327,22.579,Go,0,,,,,4,2.2164,1650.3185,NaN,3.8667185,3.8828836,3866.7185,3882.8836,16.1651,,,,,,,,
20130820T151145,2,13,60330.4163,24.1322,Go,0,,,,,4,2.2165,1650.3549,NaN,3.8668549,3.8830419,3866.8549,3883.0419,16.187,,,,,,,,
20130820T151145,2,14,64213.4582,25.6854,Go,0,,,,,4,2.2164,2150.3309,NaN,4.3667309,4.3837518,4366.7309,4383.7518,17.0209,,,,,,,,
20130820T151145,2,15,68597.21,27.4389,Stop,1,0.33333,0.23333,,,1,2.3498,2016.9948,NaN,4.3667948,4.3822872,4366.7948,4382.2872,15.4924,,,,,,,,
20130820T151145,2,16,72979.4972,29.1918,Go,0,,,,,4,2.2165,1650.367,NaN,3.866867,3.8829889,3866.867,3882.9889,16.1219,,,,,,,,
20130820T151145,2,17,76862.4861,30.745,Go,0,,,,,4,2.2165,1650.3274,NaN,3.8668274,3.8829946,3866.8274,3882.9946,16.1672,,,,,,,,
20130820T151145,2,18,80745.4807,32.2982,Go,0,,,,,4,2.2165,2650.458,NaN,4.866958,4.8831451,4866.958,4883.1451,16.1871,,,,,,,,
20130820T151145,2,19,85628.6258,34.2515,Go,0,,,,,4,2.2165,2650.3628,NaN,4.8668628,4.8828317,4866.8628,4882.8317,15.9689,,,,,,,,
20130820T151145,2,20,90511.4575,36.2046,Go,0,,,,,4,2.2164,2150.3203,NaN,4.3667203,4.3828722,4366.7203,4382.8722,16.1519,,,,,,,,
20130820T151145,2,21,94894.3297,37.9577,Go,0,,,,,4,2.2165,2650.3616,NaN,4.8668616,4.8830372,4866.8616,4883.0372,16.1756,,,,,,,,
20130820T151145,2,22,99777.3669,39.9109,Go,0,,,,,4,2.2165,2150.5994,NaN,4.3670994,4.3831715,4367.0994,4383.1715,16.0721,,,,,,,,
20130820T151145,2,23,104160.5384,41.6642,Go,0,,,,,4,2.2165,3150.3153,NaN,5.3668153,5.3826868,5366.8153,5382.6868,15.8715,,,,,,,,
20130820T151145,2,24,109543.2252,43.8173,Go,0,,,,,4,2.2165,2650.3468,NaN,4.8668468,4.8829426,4866.8468,4882.9426,16.0958,,,,,,,,
20130820T151145,2,25,114426.1678,45.7705,Go,0,,,,,4,2.2164,1650.3201,NaN,3.8667201,3.882878,3866.7201,3882.878,16.1579,,,,,,,,
20130820T151145,2,26,118309.0458,47.3236,Go,0,,,,,4,2.2165,3150.3674,NaN,5.3668674,5.3838309,5366.8674,5383.8309,16.9635,,,,,,,,
20130820T151145,2,27,123692.8767,49.4772,Stop,1,0.36667,0.26667,,,1,2.3831,1483.6533,NaN,3.8667533,3.8823106,3866.7533,3882.3106,15.5573,,,,,,,,
20130820T151145,2,28,127575.1873,51.0301,Go,0,,,,,4,2.2165,1650.4356,NaN,3.8669356,3.8829306,3866.9356,3882.9306,15.995,,,,,,,,
20130820T151145,2,29,131458.1179,52.5832,Go,0,,,,,4,2.2164,1650.3195,NaN,3.8667195,3.8828638,3866.7195,3882.8638,16.1443,,,,,,,,
20130820T151145,2,30,135340.9817,54.1364,Go,0,,,,,4,2.2164,2650.3469,NaN,4.8667469,4.8830247,4866.7469,4883.0247,16.2778,,,,,,,,
20130820T151145,2,31,140224.0064,56.0896,Go,0,,,,,4,2.2165,2150.4249,NaN,4.3669249,4.3830794,4366.9249,4383.0794,16.1545,,,,,,,,
20130820T151145,2,32,144607.0858,57.8428,Go,0,,,,,4,2.2165,2650.4366,NaN,4.8669366,4.8829939,4866.9366,4882.9939,16.0573,,,,,,,,
20130820T151145,2,33,149490.0797,59.796,Go,0,,,,,4,2.2165,2150.5331,NaN,4.3670331,4.383143,4367.0331,4383.143,16.1099,,,,,,,,
20130820T151145,2,34,153873.2227,61.5493,Go,0,,,,,4,2.2165,2150.4773,NaN,4.3669773,4.384313,4366.9773,4384.313,17.3357,,,,,,,,
20130820T151145,2,35,158257.5357,63.303,Go,0,,,,,4,2.2165,2650.4833,NaN,4.8669833,4.881467,4866.9833,4881.467,14.4837,,,,,,,,
20130820T151145,2,36,163139.0027,65.2556,Go,0,,,,,4,2.2164,3150.3302,NaN,5.3667302,5.3826981,5366.7302,5382.6981,15.9679,,,,,,,,
20130820T151145,2,37,168521.7008,67.4087,Go,0,,,,,4,2.2164,2150.3256,NaN,4.3667256,4.3828904,4366.7256,4382.8904,16.1648,,,,,,,,
20130820T151145,2,38,172904.5912,69.1618,Go,0,,,,,4,2.2165,1650.3326,NaN,3.8668326,3.8836977,3866.8326,3883.6977,16.8651,,,,,,,,
20130820T151145,2,39,176788.2889,70.7153,Stop,1,0.36667,0.26667,,,1,2.3831,1983.6879,NaN,4.3667879,4.382951,4366.7879,4382.951,16.1631,,,,,,,,
20130820T151145,2,40,181171.2399,72.4685,Stop,1,0.35,0.25,,,1,2.3665,1500.3144,NaN,3.8668144,3.8823926,3866.8144,3882.3926,15.5782,,,,,,,,
20130820T151145,2,41,185053.6325,74.0215,Go,0,,,,,4,2.2165,3150.3649,NaN,5.3668649,5.3832771,5366.8649,5383.2771,16.4122,,,,,,,,
20130820T151145,2,42,190436.9096,76.1748,Go,0,,,,,4,2.2165,2650.3671,NaN,4.8668671,4.8833015,4866.8671,4883.3015,16.4344,,,,,,,,
20130820T151145,2,43,195320.2111,78.1281,Stop,1,0.35,0.25,,,1,2.3664,2000.3129,NaN,4.3667129,4.382272,4366.7129,4382.272,15.5591,,,,,,,,
20130820T151145,2,44,199702.4831,79.881,Go,0,,,,,4,2.2164,1650.3188,NaN,3.8667188,3.8829213,3866.7188,3882.9213,16.2025,,,,,,,,
20130820T151145,2,45,203585.4044,81.4342,Go,0,,,,,4,2.2165,2650.3205,NaN,4.8668205,4.883708,4866.8205,4883.708,16.8875,,,,,,,,
20130820T151145,2,46,208469.1124,83.3876,Stop,1,0.35,0.25,,,1,2.3664,2500.3147,NaN,4.8667147,4.8822559,4866.7147,4882.2559,15.5412,,,,,,,,
20130820T151145,2,47,213351.3683,85.3405,Go,0,,,,,4,2.2165,2150.4975,NaN,4.3669975,4.3837883,4366.9975,4383.7883,16.7908,,,,,,,,
20130820T151145,2,48,217735.1566,87.0941,Stop,1,0.36667,0.26667,,,1,2.3831,2483.6493,NaN,4.8667493,4.8821235,4866.7493,4882.1235,15.3742,,,,,,,,
20130820T151145,2,49,222617.2801,89.0469,Go,0,,,,,4,2.2165,2650.4248,NaN,4.8669248,4.8830677,4866.9248,4883.0677,16.1429,,,,,,,,
20130820T151145,2,50,227500.3478,91.0001,Go,0,,,,,4,2.2165,1650.4785,NaN,3.8669785,,3866.9785,,,,,,,,,,
20130820T151145,3,1,5754.792,2.3019,Go,0,,,,,4,2.2164,3150.3435,NaN,5.3667435,5.3809844,5366.7435,5380.9844,14.2409,,,,,,,,
20130820T151145,3,2,11135.7764,4.4543,Stop,1,0.36667,0.26667,,,1,2.3831,2483.9316,NaN,4.8670316,4.8823702,4867.0316,4882.3702,15.3386,,,,,,,,
20130820T151145,3,3,16018.1466,6.4073,Go,0,,,,,4,2.2165,2150.3368,NaN,4.3668368,4.3827017,4366.8368,4382.7017,15.8649,,,,,,,,
20130820T151145,3,4,20400.8483,8.1603,Go,0,,,,,4,2.2165,1650.3258,NaN,3.8668258,3.8829217,3866.8258,3882.9217,16.0959,,,,,,,,
20130820T151145,3,5,24283.77,9.7135,Go,0,,,,,4,2.2164,2650.3138,NaN,4.8667138,4.8831332,4866.7138,4883.1332,16.4194,,,,,,,,
20130820T151145,3,6,29166.9032,11.6668,Go,0,,,,,4,2.2165,2650.3569,NaN,4.8668569,4.882886,4866.8569,4882.886,16.0291,,,,,,,,
20130820T151145,3,7,34049.7892,13.6199,Go,0,,,,,4,2.2165,2150.4006,NaN,4.3669006,4.3828841,4366.9006,4382.8841,15.9835,,,,,,,,
20130820T151145,3,8,38432.6733,15.3731,Go,0,,,,,4,2.2165,2650.3677,NaN,4.8668677,4.8829806,4866.8677,4882.9806,16.1129,,,,,,,,
20130820T151145,3,9,43315.6539,17.3263,Go,0,,,,,4,2.2164,2650.3357,NaN,4.8667357,4.8828691,4866.7357,4882.8691,16.1334,,,,,,,,
20130820T151145,3,10,48198.523,19.2794,Go,0,,,,,4,2.2165,1650.3215,NaN,3.8668215,3.8829266,3866.8215,3882.9266,16.1051,,,,,,,,
20130820T151145,3,11,52081.4496,20.8326,Go,0,,,,,4,2.2165,2150.3304,NaN,4.3668304,4.3831126,4366.8304,4383.1126,16.2822,,,,,,,,
20130820T151145,3,12,56464.5622,22.5858,Go,0,,,,,4,2.2164,1650.3205,NaN,3.8667205,3.8828469,3866.7205,3882.8469,16.1264,,,,,,,,
20130820T151145,3,13,60347.4091,24.139,Go,0,,,,,4,2.2165,1650.4223,NaN,3.8669223,3.8832892,3866.9223,3883.2892,16.3669,,,,,,,,
20130820T151145,3,14,64230.6983,25.6923,Go,0,,,,,4,2.2165,2150.3814,NaN,4.3668814,4.3835648,4366.8814,4383.5648,16.6834,,,,,,,,
20130820T151145,3,15,68614.2631,27.4457,Stop,1,0.33333,0.23333,,,1,2.3498,2017.0057,NaN,4.3668057,4.382937,4366.8057,4382.937,16.1313,,,,,,,,
20130820T151145,3,16,72997.2001,29.1989,Stop,1,0.33333,0.23333,,,1,2.3497,1516.9847,NaN,3.8666847,3.8828108,3866.6847,3882.8108,16.1261,,,,,,,,
20130820T151145,3,17,76880.0109,30.752,Stop,1,0.36667,0.26667,,,1,2.3831,1483.7835,NaN,3.8668835,3.882644,3866.8835,3882.644,15.7605,,,,,,,,
20130820T151145,3,18,80762.6549,32.3051,Go,0,,,,,4,2.2165,2650.4593,NaN,4.8669593,4.8835295,4866.9593,4883.5295,16.5702,,,,,,,,
20130820T151145,3,19,85646.1844,34.2585,Stop,1,0.35,0.25,,,1,2.3664,2500.3193,NaN,4.8667193,5.082182,4866.7193,5082.182,215.4627,,,,,,,,
20130820T151145,3,20,90728.3664,36.2913,Go,0,,,,,4,2.2165,2150.3864,NaN,4.3668864,4.3830523,4366.8864,4383.0523,16.1659,,,,,,,,
20130820T151145,3,21,95111.4187,38.0446,Go,0,,,,,4,2.2164,2650.3191,NaN,4.8667191,4.8828452,4866.7191,4882.8452,16.1261,,,,,,,,
20130820T151145,3,22,99994.2639,39.9977,Go,0,,,,,4,2.2165,2150.4345,NaN,4.3669345,4.3830685,4366.9345,4383.0685,16.134,,,,,,,,
20130820T151145,3,23,104377.3324,41.7509,Go,0,,,,,4,2.2165,3150.3163,NaN,5.3668163,5.3829232,5366.8163,5382.9232,16.1069,,,,,,,,
20130820T151145,3,24,109760.2556,43.9041,Go,0,,,,,4,2.2165,2650.3791,NaN,4.8668791,4.8835825,4866.8791,4883.5825,16.7034,,,,,,,,
20130820T151145,3,25,114643.8381,45.8575,Stop,1,0.35,0.25,,,1,2.3664,1500.3163,NaN,3.8667163,3.8820825,3866.7163,3882.0825,15.3662,,,,,,,,
20130820T151145,3,26,118525.9206,47.4104,Go,0,,,,,4,2.2165,3150.4914,NaN,5.3669914,5.3841018,5366.9914,5384.1018,17.1104,,,,,,,,
20130820T151145,3,27,123910.0224,49.564,Stop,1,0.36667,0.26667,,,1,2.3831,1483.6483,NaN,3.8667483,3.8818996,3866.7483,3881.8996,15.1513,,,,,,,,
20130820T151145,3,28,127791.922,51.1168,Go,0,,,,,4,2.2164,1650.3178,NaN,3.8667178,3.8831303,3866.7178,3883.1303,16.4125,,,,,,,,
20130820T151145,3,29,131675.0523,52.67,Go,0,,,,,4,2.2165,1650.3158,NaN,3.8668158,3.88312,3866.8158,3883.12,16.3042,,,,,,,,
20130820T151145,3,30,135558.1723,54.2233,Go,0,,,,,4,2.2165,2650.3297,NaN,4.8668297,4.8828562,4866.8297,4882.8562,16.0265,,,,,,,,
20130820T151145,3,31,140441.0285,56.1764,Go,0,,,,,4,2.2165,2150.3725,NaN,4.3668725,4.3829791,4366.8725,4382.9791,16.1066,,,,,,,,
20130820T151145,3,32,144824.0076,57.9296,Go,0,,,,,4,2.2165,2650.515,NaN,4.867015,4.8837851,4867.015,4883.7851,16.7701,,,,,,,,
20130820T151145,3,33,149707.7927,59.8831,Stop,1,0.33333,0.23333,,,1,2.3498,2017.0266,NaN,4.3668266,4.3821515,4366.8266,4382.1515,15.3249,,,,,,,,
20130820T151145,3,34,154089.9442,61.636,Go,0,,,,,4,2.2165,2150.319,NaN,4.366819,4.3828778,4366.819,4382.8778,16.0588,,,,,,,,
20130820T151145,3,35,158472.822,63.3891,Go,0,,,,,4,2.2165,2650.4212,NaN,4.8669212,4.8830816,4866.9212,4883.0816,16.1604,,,,,,,,
20130820T151145,3,36,163355.9036,65.3424,Go,0,,,,,4,2.2164,3150.3488,NaN,5.3667488,5.3828199,5366.7488,5382.8199,16.0711,,,,,,,,
20130820T151145,3,37,168738.7235,67.4955,Go,0,,,,,4,2.2164,2150.3114,NaN,4.3667114,4.3828981,4366.7114,4382.8981,16.1867,,,,,,,,
20130820T151145,3,38,173121.6216,69.2486,Go,0,,,,,4,2.2164,1650.339,NaN,3.866739,3.8829816,3866.739,3882.9816,16.2426,,,,,,,,
20130820T151145,3,39,177004.6032,70.8018,Go,0,,,,,4,2.2164,2150.3219,NaN,4.3667219,4.3829993,4366.7219,4382.9993,16.2774,,,,,,,,
20130820T151145,3,40,181387.6025,72.555,Go,0,,,,,4,2.2164,1650.3347,NaN,3.8667347,3.8829757,3866.7347,3882.9757,16.241,,,,,,,,
20130820T151145,3,41,185270.5782,74.1082,Go,0,,,,,4,2.2165,3150.448,NaN,5.366948,5.3831533,5366.948,5383.1533,16.2053,,,,,,,,
20130820T151145,3,42,190653.7315,76.2615,Go,0,,,,,4,2.2165,2650.4285,NaN,4.8669285,4.8829068,4866.9285,4882.9068,15.9783,,,,,,,,
20130820T151145,3,43,195536.6383,78.2147,Go,0,,,,,4,2.2165,2150.3167,NaN,4.3668167,4.3828165,4366.8167,4382.8165,15.9998,,,,,,,,
20130820T151145,3,44,199919.4548,79.9678,Go,0,,,,,4,2.2165,1650.3903,NaN,3.8668903,3.8839448,3866.8903,3883.9448,17.0545,,,,,,,,
20130820T151145,3,45,203803.3996,81.5214,Stop,1,0.35,0.25,,,1,2.3664,2500.319,NaN,4.866719,4.8820092,4866.719,4882.0092,15.2902,,,,,,,,
20130820T151145,3,46,208685.4088,83.4742,Go,0,,,,,4,2.2165,2650.3324,NaN,4.8668324,4.8832452,4866.8324,4883.2452,16.4128,,,,,,,,
20130820T151145,3,47,213568.654,85.4275,Go,0,,,,,4,2.2165,2150.4635,NaN,4.3669635,4.3828156,4366.9635,4382.8156,15.8521,,,,,,,,
20130820T151145,3,48,217951.4696,87.1806,Go,0,,,,,4,2.2164,2650.3714,NaN,4.8667714,4.8836911,4866.7714,4883.6911,16.9197,,,,,,,,
20130820T151145,3,49,222835.1607,89.1341,Stop,1,0.35,0.25,,,1,2.3665,2500.4632,NaN,4.8669632,4.8823473,4866.9632,4882.3473,15.3841,,,,,,,,
20130820T151145,3,50,227717.508,91.087,Go,0,,,,,4,2.2165,1650.4341,NaN,3.8669341,,3866.9341,,,,,,,,,,
20130820T151145,4,1,5761.4293,2.3046,Go,0,,,,,4,2.2165,3150.3378,NaN,5.3668378,5.3739863,5366.8378,5373.9863,7.1485,,,,,,,,
20130820T151145,4,2,11135.4156,4.4542,Go,0,,,,,4,2.2165,2650.4732,NaN,4.8669732,4.8829101,4866.9732,4882.9101,15.9369,,,,,,,,
20130820T151145,4,3,16018.3257,6.4073,Go,0,,,,,4,2.2164,2150.3905,NaN,4.3667905,4.3830046,4366.7905,4383.0046,16.2141,,,,,,,,
20130820T151145,4,4,20401.3303,8.1605,Go,0,,,,,4,2.2165,1650.5926,NaN,3.8670926,3.8836342,3867.0926,3883.6342,16.5416,,,,,,,,
20130820T151145,4,5,24284.9645,9.714,Stop,1,0.33333,0.23333,,,1,2.3498,2517.112,NaN,4.866912,4.8828091,4866.912,4882.8091,15.8971,,,,,,,,
20130820T151145,4,6,29167.7736,11.6671,Stop,1,0.35,0.25,,,1,2.3664,2500.321,NaN,4.866721,4.8821294,4866.721,4882.1294,15.4084,,,,,,,,
20130820T151145,4,7,34049.903,13.62,Go,0,,,,,4,2.2165,2150.3925,NaN,4.3668925,4.3830159,4366.8925,4383.0159,16.1234,,,,,,,,
20130820T151145,4,8,38432.9189,15.3732,Go,0,,,,,4,2.2165,2650.3689,NaN,4.8668689,4.8830148,4866.8689,4883.0148,16.1459,,,,,,,,
20130820T151145,4,9,43315.9337,17.3264,Go,0,,,,,4,2.2165,2650.3162,NaN,4.8668162,4.8828111,4866.8162,4882.8111,15.9949,,,,,,,,
20130820T151145,4,10,48198.7448,19.2795,Go,0,,,,,4,2.2164,1650.3171,NaN,3.8667171,3.8829127,3866.7171,3882.9127,16.1956,,,,,,,,
20130820T151145,4,11,52081.6575,20.8327,Go,0,,,,,4,2.2164,2150.3282,NaN,4.3667282,4.3837367,4366.7282,4383.7367,17.0085,,,,,,,,
20130820T151145,4,12,56465.3942,22.5862,Stop,1,0.33333,0.23333,,,1,2.3497,1516.9843,NaN,3.8666843,3.8829568,3866.6843,3882.9568,16.2725,,,,,,,,
20130820T151145,4,13,60348.351,24.1393,Stop,1,0.36667,0.26667,,,1,2.3831,1483.6576,NaN,3.8667576,3.8823363,3866.7576,3882.3363,15.5787,,,,,,,,
20130820T151145,4,14,64230.6873,25.6923,Go,0,,,,,4,2.2164,2150.3143,NaN,4.3667143,4.3829964,4366.7143,4382.9964,16.2821,,,,,,,,
20130820T151145,4,15,68613.6837,27.4455,Go,0,,,,,4,2.2165,2150.3443,NaN,4.3668443,4.383094,4366.8443,4383.094,16.2497,,,,,,,,
20130820T151145,4,16,72996.7777,29.1987,Go,0,,,,,4,2.2164,1650.3211,NaN,3.8667211,3.883653,3866.7211,3883.653,16.9319,,,,,,,,
20130820T151145,4,17,76880.4307,30.7522,Stop,1,0.33333,0.23333,,,1,2.3498,1516.9966,NaN,3.8667966,3.8822136,3866.7966,3882.2136,15.417,,,,,,,,
20130820T151145,4,18,80762.6443,32.3051,Go,0,,,,,4,2.2164,2650.3119,NaN,4.8667119,4.8830326,4866.7119,4883.0326,16.3207,,,,,,,,
20130820T151145,4,19,85645.6769,34.2583,Go,0,,,,,4,2.2165,2650.4791,NaN,4.8669791,4.8832253,4866.9791,4883.2253,16.2462,,,,,,,,
20130820T151145,4,20,90528.9022,36.2116,Go,0,,,,,4,2.2164,2150.3223,NaN,4.3667223,4.3826398,4366.7223,4382.6398,15.9175,,,,,,,,
20130820T151145,4,21,94911.542,37.9646,Go,0,,,,,4,2.2165,2650.4235,NaN,4.8669235,4.883118,4866.9235,4883.118,16.1945,,,,,,,,
20130820T151145,4,22,99794.66,39.9179,Go,0,,,,,4,2.2165,2150.7615,NaN,4.3672615,4.3832642,4367.2615,4383.2642,16.0027,,,,,,,,
20130820T151145,4,23,104177.9242,41.6712,Go,0,,,,,4,2.2165,3150.3527,NaN,5.3668527,5.3826206,5366.8527,5382.6206,15.7679,,,,,,,,
20130820T151145,4,24,109560.5448,43.8242,Go,0,,,,,4,2.2165,2650.4714,NaN,4.8669714,4.8829604,4866.9714,4882.9604,15.989,,,,,,,,
20130820T151145,4,25,114443.5052,45.7774,Go,0,,,,,4,2.2165,1650.342,NaN,3.866842,3.883505,3866.842,3883.505,16.663,,,,,,,,
20130820T151145,4,26,118327.0102,47.3308,Stop,1,0.36667,0.26667,,,1,2.3831,2983.7803,NaN,5.3668803,5.3824313,5366.8803,5382.4313,15.551,,,,,,,,
20130820T151145,4,27,123709.4415,49.4838,Go,0,,,,,4,2.2165,1650.4034,NaN,3.8669034,3.8829501,3866.9034,3882.9501,16.0467,,,,,,,,
20130820T151145,4,28,127592.3916,51.037,Go,0,,,,,4,2.2165,1650.3476,NaN,3.8668476,3.8828668,3866.8476,3882.8668,16.0192,,,,,,,,
20130820T151145,4,29,131475.2584,52.5901,Go,0,,,,,4,2.2165,1650.3178,NaN,3.8668178,3.882926,3866.8178,3882.926,16.1082,,,,,,,,
20130820T151145,4,30,135358.1844,54.1433,Go,0,,,,,4,2.2164,2650.3145,NaN,4.8667145,4.8829899,4866.7145,4882.9899,16.2754,,,,,,,,
20130820T151145,4,31,140241.1743,56.0965,Go,0,,,,,4,2.2164,2150.317,NaN,4.366717,4.3829553,4366.717,4382.9553,16.2383,,,,,,,,
20130820T151145,4,32,144624.1296,57.8497,Go,0,,,,,4,2.2165,2650.3158,NaN,4.8668158,4.8837,4866.8158,4883.7,16.8842,,,,,,,,
20130820T151145,4,33,149507.8296,59.8031,Stop,1,0.35,0.25,,,1,2.3664,2000.3314,NaN,4.3667314,4.3823256,4366.7314,4382.3256,15.5942,,,,,,,,
20130820T151145,4,34,153890.1552,61.5561,Go,0,,,,,4,2.2165,2150.3246,NaN,4.3668246,4.3836661,4366.8246,4383.6661,16.8415,,,,,,,,
20130820T151145,4,35,158273.8213,63.3095,Stop,1,0.33333,0.23333,,,1,2.3498,2517.014,NaN,4.866814,4.8822411,4866.814,4882.2411,15.4271,,,,,,,,
20130820T151145,4,36,163156.0624,65.2624,Go,0,,,,,4,2.2164,3150.3216,NaN,5.3667216,5.3836829,5366.7216,5383.6829,16.9613,,,,,,,,
20130820T151145,4,37,168539.7453,67.4159,Stop,1,0.35,0.25,,,1,2.3664,2000.3139,NaN,4.3667139,4.3821297,4366.7139,4382.1297,15.4158,,,,,,,,
20130820T151145,4,38,172921.875,69.1687,Go,0,,,,,4,2.2165,1650.3607,NaN,3.8668607,3.883017,3866.8607,3883.017,16.1563,,,,,,,,
20130820T151145,4,39,176804.892,70.722,Go,0,,,50,0.020093,3,2.2164,2150.3299,0.020093,4.3667299,4.3835734,4366.7299,4383.5734,16.8435,,,,,,,,
20130820T151145,4,40,181188.4654,72.4754,Go,0,,,,,4,2.2165,1650.4005,0.020093,3.8669005,3.8825685,3866.9005,3882.5685,15.668,,,,,,,,
20130820T151145,4,41,185071.0339,74.0284,Go,0,,,,,4,2.2165,3150.3961,0.020093,5.3668961,5.3832933,5366.8961,5383.2933,16.3972,,,,,,,,
20130820T151145,4,42,190454.3272,76.1817,Go,0,,,,,4,2.2165,2650.3785,0.020093,4.8668785,4.8869482,4866.8785,4886.9482,20.0697,,,,,,,,
20130820T151145,4,43,195341.2754,78.1365,Stop,1,-0.22991,0.25,,,1,1.7832,2580.2407,0.020093,4.3634407,4.3752374,4363.4407,4375.2374,11.7967,,,,,,,,
20130820T151145,4,44,199716.5128,79.8866,Go,0,,,,,4,2.2165,1650.3387,0.020093,3.8668387,3.8862963,3866.8387,3886.2963,19.4576,,,,,,,,
20130820T151145,4,45,203602.8091,81.4411,Go,0,,,,,4,2.2164,2650.3162,0.020093,4.8667162,4.8828644,4866.7162,4882.8644,16.1482,,,,,,,,
20130820T151145,4,46,208485.6735,83.3943,Go,0,,,,,4,2.2165,2650.4136,0.020093,4.8669136,4.8832412,4866.9136,4883.2412,16.3276,,,,,,,,
20130820T151145,4,47,213368.9147,85.3476,Go,0,,,,,4,2.2165,2150.3147,0.020093,4.3668147,4.3827318,4366.8147,4382.7318,15.9171,,,,,,,,
20130820T151145,4,48,217751.6465,87.1007,Go,0,,,,,4,2.2165,2650.3297,0.020093,4.8668297,4.8829535,4866.8297,4882.9535,16.1238,,,,,,,,
20130820T151145,4,49,222634.6,89.0538,Go,0,,,,,4,2.2164,2650.3231,0.020093,4.8667231,4.8829551,4866.7231,4882.9551,16.232,,,,,,,,
20130820T151145,4,50,227517.5551,91.007,Go,0,,,,,4,2.2165,1650.3178,0.020093,3.8668178,,3866.8178,,,,,,,,,,
