SID,Run,Trial,RawOnset (ms),TROnset,Go/Stop,Stop,Z (s),Delay (s),Response,RT (s),Code,Duration (s),Jitter (ms),Mean (s),Trial Duration (s),Onset Difference (s),Trial Duration (ms),Onset Difference (ms),Latency (ms),,Block,Expected Block Duration (ms),Actual Block Duration (ms),Block Duration Difference (ms),Calculated Between-Trial Latency (ms),Remaining Within cycle() Latency (ms),Within cycle() Latency Per Trial (ms)
20130821T161643,1,1,5764.8191,2.3059,Stop,1,0.36667,0.23333,,,1,2.3664,2983.6091,NaN,5.3500091,5.3967413,5350.0091,5396.7413,46.7322,,1,218000,218814.2767,814.2767,903.7869,-89.5102,-1.790204
20130821T161643,1,2,11161.5604,4.4646,Go,0,,,,,4,2.1998,2498.3897,NaN,4.6981897,4.7025966,4698.1897,4702.5966,4.4069,,2,218000,218797.1847,797.1847,889.0454,-91.8607,-1.837214
20130821T161643,1,3,15864.157,6.3457,Go,0,,,,,4,2.1998,1998.4794,NaN,4.1982794,4.2163024,4198.2794,4216.3024,18.023,,3,218000,218793.4309,793.4309,885.8922,-92.4613,-1.849226
20130821T161643,1,4,20080.4594,8.0322,Go,0,,,,,4,2.1998,1498.4825,NaN,3.6982825,3.7163519,3698.2825,3716.3519,18.0694,,4,218000,218795.8773,795.8773,888.6813,-92.804,-1.85608
20130821T161643,1,5,23796.8113,9.5187,Go,0,,,,,4,2.1998,2498.3263,NaN,4.6981263,4.7161976,4698.1263,4716.1976,18.0713,,,,218800.1924,800.1924,891.85145,-91.65905,-1.833181
20130821T161643,1,6,28513.0089,11.4052,Go,0,,,,,4,2.1998,2498.3627,NaN,4.6981627,4.7164035,4698.1627,4716.4035,18.2408,,,,,,,,
20130821T161643,1,7,33229.4124,13.2918,Go,0,,,,,4,2.1998,1998.4546,NaN,4.1982546,4.2216918,4198.2546,4221.6918,23.4372,,,,,,,,
20130821T161643,1,8,37451.1042,14.9804,Stop,1,0.35,0.25,,,1,2.3498,2498.3339,NaN,4.8481339,4.8607745,4848.1339,4860.7745,12.6406,,,,,,,,
20130821T161643,1,9,42311.8787,16.9248,Go,0,,,,,4,2.1998,2498.3259,NaN,4.6981259,4.7163075,4698.1259,4716.3075,18.1816,,,,,,,,
20130821T161643,1,10,47028.1862,18.8113,Go,0,,,,,4,2.1998,1498.3831,NaN,3.6981831,3.7163138,3698.1831,3716.3138,18.1307,,,,,,,,
20130821T161643,1,11,50744.5,20.2978,Go,0,,,,,4,2.1998,1998.3849,NaN,4.1981849,4.216361,4198.1849,4216.361,18.1761,,,,,,,,
20130821T161643,1,12,54960.861,21.9843,Go,0,,,,,4,2.1998,1498.3683,NaN,3.6981683,3.7165416,3698.1683,3716.5416,18.3733,,,,,,,,
20130821T161643,1,13,58677.4026,23.471,Go,0,,,,,4,2.1998,1498.3293,NaN,3.6981293,3.7201436,3698.1293,3720.1436,22.0143,,,,,,,,
20130821T161643,1,14,62397.5462,24.959,Stop,1,0.35,0.25,,,1,2.3498,1998.3248,NaN,4.3481248,4.3630819,4348.1248,4363.0819,14.9571,,,,,,,,
20130821T161643,1,15,66760.6281,26.7043,Stop,1,0.35,0.25,,,1,2.3498,1998.339,NaN,4.348139,4.3655364,4348.139,4365.5364,17.3974,,,,,,,,
20130821T161643,1,16,71126.1645,28.4505,Go,0,,,,,4,2.1998,1498.3594,NaN,3.6981594,3.7168885,3698.1594,3716.8885,18.7291,,,,,,,,
20130821T161643,1,17,74843.053,29.9372,Stop,1,0.36667,0.23333,,,1,2.3665,1481.6814,NaN,3.8481814,3.8658531,3848.1814,3865.8531,17.6717,,,,,,,,
20130821T161643,1,18,78708.9061,31.4836,Go,0,,,,,4,2.1998,2498.3293,NaN,4.6981293,4.7163079,4698.1293,4716.3079,18.1786,,,,,,,,
20130821T161643,1,19,83425.214,33.3701,Go,0,,,,,4,2.1998,2498.5745,NaN,4.6983745,4.7165366,4698.3745,4716.5366,18.1621,,,,,,,,
20130821T161643,1,20,88141.7506,35.2567,Go,0,,,,,4,2.1997,1998.3215,NaN,4.1980215,4.2159908,4198.0215,4215.9908,17.9693,,,,,,,,
20130821T161643,1,21,92357.7414,36.9431,Go,0,,,,,4,2.1998,2498.5713,NaN,4.6983713,4.7171984,4698.3713,4717.1984,18.8271,,,,,,,,
20130821T161643,1,22,97074.9398,38.83,Stop,1,0.35,0.25,,,1,2.3498,1998.3472,NaN,4.3481472,4.3654941,4348.1472,4365.4941,17.3469,,,,,,,,
20130821T161643,1,23,101440.4339,40.5762,Go,0,,,,,4,2.1998,2998.3245,NaN,5.1981245,5.2162146,5198.1245,5216.2146,18.0901,,,,,,,,
20130821T161643,1,24,106656.6485,42.6627,Go,0,,,,,4,2.1998,2498.3442,NaN,4.6981442,4.7163459,4698.1442,4716.3459,18.2017,,,,,,,,
20130821T161643,1,25,111372.9944,44.5492,Go,0,,,,,4,2.1998,1498.4109,NaN,3.6982109,3.7163208,3698.2109,3716.3208,18.1099,,,,,,,,
20130821T161643,1,26,115089.3152,46.0357,Go,0,,,,,4,2.1998,2998.4037,NaN,5.1982037,5.2163884,5198.2037,5216.3884,18.1847,,,,,,,,
20130821T161643,1,27,120305.7036,48.1223,Go,0,,,,,4,2.1998,1498.3508,NaN,3.6981508,3.7161208,3698.1508,3716.1208,17.97,,,,,,,,
20130821T161643,1,28,124021.8244,49.6087,Go,0,,,,,4,2.1998,1498.4984,NaN,3.6982984,3.7166624,3698.2984,3716.6624,18.364,,,,,,,,
20130821T161643,1,29,127738.4868,51.0954,Go,0,,,,,4,2.1998,1498.3504,NaN,3.6981504,3.7161446,3698.1504,3716.1446,17.9942,,,,,,,,
20130821T161643,1,30,131454.6314,52.5819,Go,0,,,,,4,2.1998,2498.4178,NaN,4.6982178,4.7169852,4698.2178,4716.9852,18.7674,,,,,,,,
20130821T161643,1,31,136171.6166,54.4686,Stop,1,0.36667,0.23333,,,1,2.3664,1981.6508,NaN,4.3480508,4.3655219,4348.0508,4365.5219,17.4711,,,,,,,,
20130821T161643,1,32,140537.1385,56.2149,Go,0,,,,,4,2.1997,2498.3246,NaN,4.6980246,4.7163459,4698.0246,4716.3459,18.3213,,,,,,,,
20130821T161643,1,33,145253.4844,58.1014,Go,0,,,,,4,2.1998,1998.3198,NaN,4.1981198,4.2163103,4198.1198,4216.3103,18.1905,,,,,,,,
20130821T161643,1,34,149469.7947,59.7879,Go,0,,,,,4,2.1998,1998.3911,NaN,4.1981911,4.2163974,4198.1911,4216.3974,18.2063,,,,,,,,
20130821T161643,1,35,153686.1921,61.4745,Go,0,,,,,4,2.1998,2498.385,NaN,4.698185,4.7163059,4698.185,4716.3059,18.1209,,,,,,,,
20130821T161643,1,36,158402.498,63.361,Go,0,,,,,4,2.1998,2998.3301,NaN,5.1981301,5.2162011,5198.1301,5216.2011,18.071,,,,,,,,
20130821T161643,1,37,163618.6991,65.4475,Go,0,,,,,4,2.1998,1998.3198,NaN,4.1981198,4.2162788,4198.1198,4216.2788,18.159,,,,,,,,
20130821T161643,1,38,167834.9779,67.134,Go,0,,,,,4,2.1998,1498.3776,NaN,3.6981776,3.7163234,3698.1776,3716.3234,18.1458,,,,,,,,
20130821T161643,1,39,171551.3013,68.6205,Go,0,,,,,4,2.1998,1998.3666,NaN,4.1981666,4.2164017,4198.1666,4216.4017,18.2351,,,,,,,,
20130821T161643,1,40,175767.703,70.3071,Go,0,,,,,4,2.1998,1498.323,NaN,3.698123,3.7161986,3698.123,3716.1986,18.0756,,,,,,,,
20130821T161643,1,41,179483.9016,71.7936,Go,0,,,,,4,2.1998,2998.3221,NaN,5.1981221,5.2164113,5198.1221,5216.4113,18.2892,,,,,,,,
20130821T161643,1,42,184700.3129,73.8801,Go,0,,,,,4,2.1998,2498.3223,NaN,4.6981223,4.7163429,4698.1223,4716.3429,18.2206,,,,,,,,
20130821T161643,1,43,189416.6558,75.7667,Go,0,,,,,4,2.1998,1998.4367,NaN,4.1982367,4.2169073,4198.2367,4216.9073,18.6706,,,,,,,,
20130821T161643,1,44,193633.5631,77.4534,Stop,1,0.36667,0.23333,,,1,2.3665,1481.6728,NaN,3.8481728,3.8655981,3848.1728,3865.5981,17.4253,,,,,,,,
20130821T161643,1,45,197499.1612,78.9997,Go,0,,,,,4,2.1998,2498.4761,NaN,4.6982761,4.7171177,4698.2761,4717.1177,18.8416,,,,,,,,
20130821T161643,1,46,202216.2789,80.8865,Stop,1,0.36667,0.23333,,,1,2.3665,2481.655,NaN,4.848155,4.8660957,4848.155,4866.0957,17.9407,,,,,,,,
20130821T161643,1,47,207082.3746,82.8329,Stop,1,0.35,0.25,,,1,2.3498,1998.3294,NaN,4.3481294,4.365699,4348.1294,4365.699,17.5696,,,,,,,,
20130821T161643,1,48,211448.0736,84.5792,Go,0,,,,,4,2.1998,2498.3173,NaN,4.6981173,4.7162661,4698.1173,4716.2661,18.1488,,,,,,,,
20130821T161643,1,49,216164.3397,86.4657,Go,0,,,,,4,2.1998,2498.4132,NaN,4.6982132,4.7164784,4698.2132,4716.4784,18.2652,,,,,,,,
20130821T161643,1,50,220880.8181,88.3523,Go,0,,,,,4,2.1998,1498.4777,NaN,3.6982777,,3698.2777,,,,,,,,,,
20130821T161643,2,1,5766.3248,2.3065,Stop,1,0.36667,0.23333,,,1,2.3665,2981.6588,NaN,5.3481588,5.366186,5348.1588,5366.186,18.0272,,,,,,,,
20130821T161643,2,2,11132.5108,4.453,Go,0,,,,,4,2.1998,2498.3587,NaN,4.6981587,4.7162763,4698.1587,4716.2763,18.1176,,,,,,,,
20130821T161643,2,3,15848.7871,6.3395,Go,0,,,,,4,2.1998,1998.3327,NaN,4.1981327,4.2162266,4198.1327,4216.2266,18.0939,,,,,,,,
20130821T161643,2,4,20065.0137,8.026,Go,0,,,,,4,2.1998,1498.3197,NaN,3.6981197,3.7162956,3698.1197,3716.2956,18.1759,,,,,,,,
20130821T161643,2,5,23781.3093,9.5125,Go,0,,,,,4,2.1998,2498.3349,NaN,4.6981349,4.7163284,4698.1349,4716.3284,18.1935,,,,,,,,
20130821T161643,2,6,28497.6377,11.3991,Go,0,,,,,4,2.1998,2498.3425,NaN,4.6981425,4.7169458,4698.1425,4716.9458,18.8033,,,,,,,,
20130821T161643,2,7,33214.5835,13.2858,Stop,1,0.35,0.25,,,1,2.3498,1998.3188,NaN,4.3481188,4.366234,4348.1188,4366.234,18.1152,,,,,,,,
20130821T161643,2,8,37580.8175,15.0323,Stop,1,0.36667,0.23333,,,1,2.3665,2481.6797,NaN,4.8481797,4.8657484,4848.1797,4865.7484,17.5687,,,,,,,,
20130821T161643,2,9,42446.5659,16.9786,Go,0,,,,,4,2.1998,2498.3256,NaN,4.6981256,4.7168359,4698.1256,4716.8359,18.7103,,,,,,,,
20130821T161643,2,10,47163.4018,18.8654,Stop,1,0.35,0.25,,,1,2.3498,1498.4672,NaN,3.8482672,3.8658323,3848.2672,3865.8323,17.5651,,,,,,,,
20130821T161643,2,11,51029.2341,20.4117,Go,0,,,,,4,2.1998,1998.4972,NaN,4.1982972,4.2164007,4198.2972,4216.4007,18.1035,,,,,,,,
20130821T161643,2,12,55245.6348,22.0983,Go,0,,,,,4,2.1998,1498.3902,NaN,3.6981902,3.7162197,3698.1902,3716.2197,18.0295,,,,,,,,
20130821T161643,2,13,58961.8545,23.5847,Go,0,,,,,4,2.1998,1498.3526,NaN,3.6981526,3.716339,3698.1526,3716.339,18.1864,,,,,,,,
20130821T161643,2,14,62678.1935,25.0713,Go,0,,,,,4,2.1998,1998.5302,NaN,4.1983302,4.2166834,4198.3302,4216.6834,18.3532,,,,,,,,
20130821T161643,2,15,66894.8769,26.758,Go,0,,,,,4,2.1998,1998.3718,NaN,4.1981718,4.2160028,4198.1718,4216.0028,17.831,,,,,,,,
20130821T161643,2,16,71110.8797,28.4444,Go,0,,,,,4,2.1997,1498.3157,NaN,3.6980157,3.7161936,3698.0157,3716.1936,18.1779,,,,,,,,
20130821T161643,2,17,74827.0733,29.9308,Go,0,,,,,4,2.1998,1498.371,NaN,3.698171,3.7165409,3698.171,3716.5409,18.3699,,,,,,,,
20130821T161643,2,18,78543.6142,31.4174,Go,0,,,,,4,2.1998,2498.3203,NaN,4.6981203,4.7163108,4698.1203,4716.3108,18.1905,,,,,,,,
20130821T161643,2,19,83259.925,33.304,Go,0,,,,,4,2.1997,2498.3187,NaN,4.6980187,4.7168088,4698.0187,4716.8088,18.7901,,,,,,,,
20130821T161643,2,20,87976.7338,35.1907,Stop,1,0.36667,0.23333,,,1,2.3665,1981.6498,NaN,4.3481498,4.3657413,4348.1498,4365.7413,17.5915,,,,,,,,
20130821T161643,2,21,92342.4751,36.937,Go,0,,,,,4,2.1998,2498.321,NaN,4.698121,4.7162821,4698.121,4716.2821,18.1611,,,,,,,,
20130821T161643,2,22,97058.7572,38.8235,Go,0,,,,,4,2.1998,1998.3337,NaN,4.1981337,4.2162583,4198.1337,4216.2583,18.1246,,,,,,,,
20130821T161643,2,23,101275.0155,40.51,Go,0,,,,,4,2.1998,2998.4154,NaN,5.1982154,5.2164394,5198.2154,5216.4394,18.224,,,,,,,,
20130821T161643,2,24,106491.4549,42.5966,Go,0,,,,,4,2.1998,2498.3754,NaN,4.6981754,4.7184506,4698.1754,4718.4506,20.2752,,,,,,,,
20130821T161643,2,25,111209.9055,44.484,Stop,1,0.33333,0.26667,,,1,2.3331,1515.0005,NaN,3.8481005,3.8645702,3848.1005,3864.5702,16.4697,,,,,,,,
20130821T161643,2,26,115074.4757,46.0298,Stop,1,0.35,0.25,,,1,2.3497,2998.3483,NaN,5.3480483,5.3663038,5348.0483,5366.3038,18.2555,,,,,,,,
20130821T161643,2,27,120440.7795,48.1763,Stop,1,0.35,0.25,,,1,2.3498,1498.4531,NaN,3.8482531,3.8658418,3848.2531,3865.8418,17.5887,,,,,,,,
20130821T161643,2,28,124306.6213,49.7226,Go,0,,,,,4,2.1998,1498.4416,NaN,3.6982416,3.7163231,3698.2416,3716.3231,18.0815,,,,,,,,
20130821T161643,2,29,128022.9444,51.2092,Go,0,,,,,4,2.1998,1498.3306,NaN,3.6981306,3.7163327,3698.1306,3716.3327,18.2021,,,,,,,,
20130821T161643,2,30,131739.2771,52.6957,Go,0,,,,,4,2.1998,2498.3349,NaN,4.6981349,4.7162459,4698.1349,4716.2459,18.111,,,,,,,,
20130821T161643,2,31,136455.523,54.5822,Go,0,,,,,4,2.1998,1998.3235,NaN,4.1981235,4.2163338,4198.1235,4216.3338,18.2103,,,,,,,,
20130821T161643,2,32,140671.8568,56.2687,Go,0,,,,,4,2.1998,2498.3886,NaN,4.6981886,4.7164145,4698.1886,4716.4145,18.2259,,,,,,,,
20130821T161643,2,33,145388.2713,58.1553,Go,0,,,,,4,2.1998,1998.4725,NaN,4.1982725,4.2163073,4198.2725,4216.3073,18.0348,,,,,,,,
20130821T161643,2,34,149604.5786,59.8418,Go,0,,,,,4,2.1998,1998.4014,NaN,4.1982014,4.2162882,4198.2014,4216.2882,18.0868,,,,,,,,
20130821T161643,2,35,153820.8668,61.5283,Go,0,,,,,4,2.1998,2498.4454,NaN,4.6982454,4.7164101,4698.2454,4716.4101,18.1647,,,,,,,,
20130821T161643,2,36,158537.2769,63.4149,Go,0,,,,,4,2.1998,2998.4383,NaN,5.1982383,5.2168897,5198.2383,5216.8897,18.6514,,,,,,,,
20130821T161643,2,37,163754.1666,65.5017,Stop,1,0.33333,0.26667,,,1,2.3331,2014.9822,NaN,4.3480822,4.3653523,4348.0822,4365.3523,17.2701,,,,,,,,
20130821T161643,2,38,168119.5189,67.2478,Go,0,,,,,4,2.1998,1498.3322,NaN,3.6981322,3.7163675,3698.1322,3716.3675,18.2353,,,,,,,,
20130821T161643,2,39,171835.8864,68.7344,Go,0,,,,,4,2.1998,1998.3351,NaN,4.1981351,4.2164116,4198.1351,4216.4116,18.2765,,,,,,,,
20130821T161643,2,40,176052.298,70.4209,Go,0,,,,,4,2.1998,1498.3269,NaN,3.6981269,3.7162257,3698.1269,3716.2257,18.0988,,,,,,,,
20130821T161643,2,41,179768.5237,71.9074,Go,0,,,,,4,2.1998,2998.3225,NaN,5.1981225,5.2164236,5198.1225,5216.4236,18.3011,,,,,,,,
20130821T161643,2,42,184984.9473,73.994,Go,0,,,,,4,2.1998,2498.4485,NaN,4.6982485,4.7170968,4698.2485,4717.0968,18.8483,,,,,,,,
20130821T161643,2,43,189702.0441,75.8808,Stop,1,0.35,0.25,,,1,2.3498,1998.3165,NaN,4.3481165,4.3654049,4348.1165,4365.4049,17.2884,,,,,,,,
20130821T161643,2,44,194067.449,77.627,Go,0,,,,,4,2.1998,1498.4516,NaN,3.6982516,3.7164658,3698.2516,3716.4658,18.2142,,,,,,,,
20130821T161643,2,45,197783.9148,79.1136,Go,0,,,,,4,2.1998,2498.322,NaN,4.698122,4.7161397,4698.122,4716.1397,18.0177,,,,,,,,
20130821T161643,2,46,202500.0545,81,Go,0,,,,,4,2.1998,2498.3309,NaN,4.6981309,4.7163724,4698.1309,4716.3724,18.2415,,,,,,,,
20130821T161643,2,47,207216.4269,82.8866,Go,0,,,,,4,2.1998,1998.4373,NaN,4.1982373,4.2163983,4198.2373,4216.3983,18.161,,,,,,,,
20130821T161643,2,48,211432.8252,84.5731,Go,0,,,,,4,2.1998,2498.3187,NaN,4.6981187,4.7161427,4698.1187,4716.1427,18.024,,,,,,,,
20130821T161643,2,49,216148.9679,86.4596,Go,0,,,,,4,2.1998,2498.3713,NaN,4.6981713,4.7163783,4698.1713,4716.3783,18.207,,,,,,,,
20130821T161643,2,50,220865.3462,88.3461,Go,0,,,,,4,2.1998,1498.3633,NaN,3.6981633,,3698.1633,,,,,,,,,,
20130821T161643,3,1,5754.3563,2.3017,Go,0,,,,,4,2.1998,2998.3344,NaN,5.1981344,5.2119531,5198.1344,5211.9531,13.8187,,,,,,,,
20130821T161643,3,2,10966.3094,4.3865,Go,0,,,,,4,2.1998,2498.365,NaN,4.698165,4.7161367,4698.165,4716.1367,17.9717,,,,,,,,
20130821T161643,3,3,15682.4461,6.273,Go,0,,,,,4,2.1998,1998.3221,NaN,4.1981221,4.2167586,4198.1221,4216.7586,18.6365,,,,,,,,
20130821T161643,3,4,19899.2047,7.9597,Stop,1,0.35,0.25,,,1,2.3498,1498.3173,NaN,3.8481173,3.865766,3848.1173,3865.766,17.6487,,,,,,,,
20130821T161643,3,5,23764.9707,9.506,Go,0,,,,,4,2.1998,2498.3593,NaN,4.6981593,4.7164244,4698.1593,4716.4244,18.2651,,,,,,,,
20130821T161643,3,6,28481.3951,11.3926,Go,0,,,,,4,2.1998,2498.325,NaN,4.698125,4.7162078,4698.125,4716.2078,18.0828,,,,,,,,
20130821T161643,3,7,33197.6029,13.279,Go,0,,,,,4,2.1998,1998.3202,NaN,4.1981202,4.216945,4198.1202,4216.945,18.8248,,,,,,,,
20130821T161643,3,8,37414.5479,14.9658,Stop,1,0.35,0.25,,,1,2.3498,2498.3223,NaN,4.8481223,4.8656538,4848.1223,4865.6538,17.5315,,,,,,,,
20130821T161643,3,9,42280.2017,16.9121,Go,0,,,,,4,2.1998,2498.3582,NaN,4.6981582,4.7163823,4698.1582,4716.3823,18.2241,,,,,,,,
20130821T161643,3,10,46996.584,18.7986,Go,0,,,,,4,2.1998,1498.4717,NaN,3.6982717,3.7163449,3698.2717,3716.3449,18.0732,,,,,,,,
20130821T161643,3,11,50712.9289,20.2852,Go,0,,,,,4,2.1998,1998.3139,NaN,4.1981139,4.2161852,4198.1139,4216.1852,18.0713,,,,,,,,
20130821T161643,3,12,54929.1141,21.9716,Go,0,,,,,4,2.1998,1498.4462,NaN,3.6982462,3.7164797,3698.2462,3716.4797,18.2335,,,,,,,,
20130821T161643,3,13,58645.5938,23.4582,Go,0,,,,,4,2.1998,1498.3483,NaN,3.6981483,3.7162552,3698.1483,3716.2552,18.1069,,,,,,,,
20130821T161643,3,14,62361.849,24.9447,Go,0,,,,,4,2.1997,1998.3185,NaN,4.1980185,4.2162683,4198.0185,4216.2683,18.2498,,,,,,,,
20130821T161643,3,15,66578.1173,26.6312,Go,0,,,,,4,2.1998,1998.3965,NaN,4.1981965,4.2170992,4198.1965,4217.0992,18.9027,,,,,,,,
20130821T161643,3,16,70795.2165,28.3181,Stop,1,0.35,0.25,,,1,2.3498,1498.4415,NaN,3.8482415,3.8657151,3848.2415,3865.7151,17.4736,,,,,,,,
20130821T161643,3,17,74660.9316,29.8644,Go,0,,,,,4,2.1998,1498.321,NaN,3.698121,3.7162419,3698.121,3716.2419,18.1209,,,,,,,,
20130821T161643,3,18,78377.1735,31.3509,Go,0,,,,,4,2.1998,2498.3925,NaN,4.6981925,4.716437,4698.1925,4716.437,18.2445,,,,,,,,
20130821T161643,3,19,83093.6105,33.2374,Go,0,,,,,4,2.1998,2498.4102,NaN,4.6982102,4.7162982,4698.2102,4716.2982,18.088,,,,,,,,
20130821T161643,3,20,87809.9087,35.124,Go,0,,,,,4,2.1998,1998.3168,NaN,4.1981168,4.2161319,4198.1168,4216.1319,18.0151,,,,,,,,
20130821T161643,3,21,92026.0406,36.8104,Go,0,,,,,4,2.1998,2498.323,NaN,4.698123,4.7164171,4698.123,4716.4171,18.2941,,,,,,,,
20130821T161643,3,22,96742.4577,38.697,Go,0,,,,,4,2.1998,1998.3205,NaN,4.1981205,4.2162295,4198.1205,4216.2295,18.109,,,,,,,,
20130821T161643,3,23,100958.6872,40.3835,Go,0,,,,,4,2.1998,2998.3291,NaN,5.1981291,5.2163352,5198.1291,5216.3352,18.2061,,,,,,,,
20130821T161643,3,24,106175.0224,42.47,Go,0,,,,,4,2.1998,2498.3676,NaN,4.6981676,4.7162955,4698.1676,4716.2955,18.1279,,,,,,,,
20130821T161643,3,25,110891.3179,44.3565,Go,0,,,,,4,2.1998,1498.4305,NaN,3.6982305,3.7163433,3698.2305,3716.3433,18.1128,,,,,,,,
20130821T161643,3,26,114607.6612,45.8431,Go,0,,,,,4,2.1998,2998.6119,NaN,5.1984119,5.2171463,5198.4119,5217.1463,18.7344,,,,,,,,
20130821T161643,3,27,119824.8075,47.9299,Stop,1,0.35,0.25,,,1,2.3498,1498.5287,NaN,3.8483287,3.8655339,3848.3287,3865.5339,17.2052,,,,,,,,
20130821T161643,3,28,123690.3414,49.4761,Go,0,,,,,4,2.1998,1498.3554,NaN,3.6981554,3.7153375,3698.1554,3715.3375,17.1821,,,,,,,,
20130821T161643,3,29,127405.6789,50.9623,Go,0,,,,,4,2.1998,1498.3246,NaN,3.6981246,3.7171193,3698.1246,3717.1193,18.9947,,,,,,,,
20130821T161643,3,30,131122.7982,52.4491,Go,0,,,,,4,2.1998,2498.3845,NaN,4.6981845,4.7165061,4698.1845,4716.5061,18.3216,,,,,,,,
20130821T161643,3,31,135839.3043,54.3357,Go,0,,,,,4,2.1998,1998.3188,NaN,4.1981188,4.2161703,4198.1188,4216.1703,18.0515,,,,,,,,
20130821T161643,3,32,140055.4746,56.0222,Go,0,,,,,4,2.1998,2498.3312,NaN,4.6981312,4.7164164,4698.1312,4716.4164,18.2852,,,,,,,,
20130821T161643,3,33,144771.891,57.9088,Go,0,,,,,4,2.1998,1998.3145,NaN,4.1981145,4.2161382,4198.1145,4216.1382,18.0237,,,,,,,,
20130821T161643,3,34,148988.0292,59.5952,Go,0,,,,,4,2.1998,1998.3559,NaN,4.1981559,4.216506,4198.1559,4216.506,18.3501,,,,,,,,
20130821T161643,3,35,153204.5352,61.2818,Go,0,,,,,4,2.1998,2498.3309,NaN,4.6981309,4.7169008,4698.1309,4716.9008,18.7699,,,,,,,,
20130821T161643,3,36,157921.436,63.1686,Stop,1,0.33333,0.26667,,,1,2.3331,3015.0097,NaN,5.3481097,5.3656711,5348.1097,5365.6711,17.5614,,,,,,,,
20130821T161643,3,37,163287.1071,65.3148,Go,0,,,,,4,2.1998,1998.3208,NaN,4.1981208,4.2161382,4198.1208,4216.1382,18.0174,,,,,,,,
20130821T161643,3,38,167503.2453,67.0013,Go,0,,,,,4,2.1998,1498.32,NaN,3.69812,3.7163429,3698.12,3716.3429,18.2229,,,,,,,,
20130821T161643,3,39,171219.5882,68.4878,Go,0,,,,,4,2.1998,1998.3514,NaN,4.1981514,4.2164421,4198.1514,4216.4421,18.2907,,,,,,,,
20130821T161643,3,40,175436.0303,70.1744,Go,0,,,,,4,2.1998,1498.3352,NaN,3.6981352,3.7170928,3698.1352,3717.0928,18.9576,,,,,,,,
20130821T161643,3,41,179153.1231,71.6612,Stop,1,0.33333,0.26667,,,1,2.3331,3015.046,NaN,5.348146,5.365547,5348.146,5365.547,17.401,,,,,,,,
20130821T161643,3,42,184518.6701,73.8075,Go,0,,,,,4,2.1998,2498.3203,NaN,4.6981203,4.7161861,4698.1203,4716.1861,18.0658,,,,,,,,
20130821T161643,3,43,189234.8562,75.6939,Go,0,,,,,4,2.1998,1998.3572,NaN,4.1981572,4.2162941,4198.1572,4216.2941,18.1369,,,,,,,,
20130821T161643,3,44,193451.1503,77.3805,Go,0,,,,,4,2.1998,1498.3203,NaN,3.6981203,3.7169434,3698.1203,3716.9434,18.8231,,,,,,,,
20130821T161643,3,45,197168.0937,78.8672,Stop,1,0.35,0.25,,,1,2.3498,2498.317,NaN,4.848117,4.8656611,4848.117,4865.6611,17.5441,,,,,,,,
20130821T161643,3,46,202033.7548,80.8135,Go,0,,,,,4,2.1997,2498.3283,NaN,4.6980283,4.7162622,4698.0283,4716.2622,18.2339,,,,,,,,
20130821T161643,3,47,206750.017,82.7,Go,0,,,,,4,2.1998,1998.3195,NaN,4.1981195,4.2169314,4198.1195,4216.9314,18.8119,,,,,,,,
20130821T161643,3,48,210966.9484,84.3868,Stop,1,0.35,0.25,,,1,2.3498,2498.321,NaN,4.848121,4.8664334,4848.121,4866.4334,18.3124,,,,,,,,
20130821T161643,3,49,215833.3818,86.3334,Stop,1,0.33333,0.26667,,,1,2.3331,2514.99,NaN,4.84809,4.8662514,4848.09,4866.2514,18.1614,,,,,,,,
20130821T161643,3,50,220699.6332,88.2799,Stop,1,0.36667,0.23333,,,1,2.3665,1481.654,NaN,3.848154,,3848.154,,,,,,,,,,
20130821T161643,4,1,5751.6177,2.3006,Go,0,,,,,4,2.1998,2998.34,NaN,5.19814,5.2148235,5198.14,5214.8235,16.6835,,,,,,,,
20130821T161643,4,2,10966.4412,4.3866,Go,0,,,,,4,2.1998,2498.3263,NaN,4.6981263,4.7169213,4698.1263,4716.9213,18.795,,,,,,,,
20130821T161643,4,3,15683.3625,6.2733,Stop,1,0.33333,0.26667,,,1,2.3331,2014.9839,NaN,4.3480839,4.3656324,4348.0839,4365.6324,17.5485,,,,,,,,
20130821T161643,4,4,20048.9949,8.0196,Go,0,,,,,4,2.1998,1498.404,NaN,3.698204,3.7164178,3698.204,3716.4178,18.2138,,,,,,,,
20130821T161643,4,5,23765.4127,9.5062,Go,0,,,,,4,2.1998,2498.4047,NaN,4.6982047,4.7163561,4698.2047,4716.3561,18.1514,,,,,,,,
20130821T161643,4,6,28481.7688,11.3927,Go,0,,,,,4,2.1997,2498.3303,NaN,4.6980303,4.7161705,4698.0303,4716.1705,18.1402,,,,,,,,
20130821T161643,4,7,33197.9393,13.2792,Go,0,,,,,4,2.1998,1998.3301,NaN,4.1981301,4.2162332,4198.1301,4216.2332,18.1031,,,,,,,,
20130821T161643,4,8,37414.1725,14.9657,Go,0,,,,,4,2.1998,2498.4625,NaN,4.6982625,4.7167117,4698.2625,4716.7117,18.4492,,,,,,,,
20130821T161643,4,9,42130.8842,16.8524,Go,0,,,,,4,2.1998,2498.3318,NaN,4.6981318,4.7159791,4698.1318,4715.9791,17.8473,,,,,,,,
20130821T161643,4,10,46846.8633,18.7387,Go,0,,,,,4,2.1998,1498.3213,NaN,3.6981213,3.7162373,3698.1213,3716.2373,18.116,,,,,,,,
20130821T161643,4,11,50563.1006,20.2252,Go,0,,,,,4,2.1998,1998.3349,NaN,4.1981349,4.2164355,4198.1349,4216.4355,18.3006,,,,,,,,
20130821T161643,4,12,54779.5361,21.9118,Go,0,,,,,4,2.1998,1498.3288,NaN,3.6981288,3.7162777,3698.1288,3716.2777,18.1489,,,,,,,,
20130821T161643,4,13,58495.8138,23.3983,Go,0,,,,,4,2.1998,1498.322,NaN,3.698122,3.7165204,3698.122,3716.5204,18.3984,,,,,,,,
20130821T161643,4,14,62212.3342,24.8849,Go,0,,,,,4,2.1998,1998.3202,NaN,4.1981202,4.2161765,4198.1202,4216.1765,18.0563,,,,,,,,
20130821T161643,4,15,66428.5107,26.5714,Go,0,,,,,4,2.1998,1998.3122,NaN,4.1981122,4.2162895,4198.1122,4216.2895,18.1773,,,,,,,,
20130821T161643,4,16,70644.8002,28.2579,Go,0,,,,,4,2.1998,1498.3183,NaN,3.6981183,3.7171508,3698.1183,3717.1508,19.0325,,,,,,,,
20130821T161643,4,17,74361.951,29.7448,Stop,1,0.33333,0.26667,,,1,2.3331,1515.0218,NaN,3.8481218,3.8656468,3848.1218,3865.6468,17.525,,,,,,,,
20130821T161643,4,18,78227.5978,31.291,Go,0,,,,,4,2.1998,2498.4344,NaN,4.6982344,4.716423,4698.2344,4716.423,18.1886,,,,,,,,
20130821T161643,4,19,82944.0208,33.1776,Go,0,,,,,4,2.1998,2498.3442,NaN,4.6981442,4.7160798,4698.1442,4716.0798,17.9356,,,,,,,,
20130821T161643,4,20,87660.1006,35.064,Go,0,,,,,4,2.1998,1998.3245,NaN,4.1981245,4.2163229,4198.1245,4216.3229,18.1984,,,,,,,,
20130821T161643,4,21,91876.4235,36.7506,Go,0,,,,,4,2.1998,2498.3541,NaN,4.6981541,4.7166124,4698.1541,4716.6124,18.4583,,,,,,,,
20130821T161643,4,22,96593.0359,38.6372,Go,0,,,,,4,2.1997,1998.3284,NaN,4.1980284,4.2159319,4198.0284,4215.9319,17.9035,,,,,,,,
20130821T161643,4,23,100808.9678,40.3236,Go,0,,,,,4,2.1998,2998.3139,NaN,5.1981139,5.2163395,5198.1139,5216.3395,18.2256,,,,,,,,
20130821T161643,4,24,106025.3073,42.4101,Go,0,,,,,4,2.1998,2498.3183,NaN,4.6981183,4.7162687,4698.1183,4716.2687,18.1504,,,,,,,,
20130821T161643,4,25,110741.576,44.2966,Go,0,,,,,4,2.1998,1498.3352,NaN,3.6981352,3.7164075,3698.1352,3716.4075,18.2723,,,,,,,,
20130821T161643,4,26,114457.9835,45.7832,Go,0,,,,,4,2.1998,2998.4199,NaN,5.1982199,5.2171109,5198.2199,5217.1109,18.891,,,,,,,,
20130821T161643,4,27,119675.0944,47.87,Stop,1,0.36667,0.23333,,,1,2.3664,1481.6609,NaN,3.8480609,3.8653356,3848.0609,3865.3356,17.2747,,,,,,,,
20130821T161643,4,28,123540.43,49.4162,Go,0,,,,,4,2.1998,1498.36,NaN,3.69816,3.7164628,3698.16,3716.4628,18.3028,,,,,,,,
20130821T161643,4,29,127256.8928,50.9028,Go,0,,,,,4,2.1998,1498.3263,NaN,3.6981263,3.7162472,3698.1263,3716.2472,18.1209,,,,,,,,
20130821T161643,4,30,130973.14,52.3893,Go,0,,,,,4,2.1998,2498.3177,NaN,4.6981177,4.7163628,4698.1177,4716.3628,18.2451,,,,,,,,
20130821T161643,4,31,135689.5028,54.2758,Go,0,,,,,4,2.1998,1998.3278,NaN,4.1981278,4.21705,4198.1278,4217.05,18.9222,,,,,,,,
20130821T161643,4,32,139906.5528,55.9626,Stop,1,0.36667,0.23333,,,1,2.3665,2481.6675,NaN,4.8481675,4.8656084,4848.1675,4865.6084,17.4409,,,,,,,,
20130821T161643,4,33,144772.1612,57.9089,Go,0,,,,,4,2.1998,1998.3506,NaN,4.1981506,4.2163027,4198.1506,4216.3027,18.1521,,,,,,,,
20130821T161643,4,34,148988.4639,59.5954,Go,0,,,,,4,2.1998,1998.4406,NaN,4.1982406,4.2171585,4198.2406,4217.1585,18.9179,,,,,,,,
20130821T161643,4,35,153205.6224,61.2822,Stop,1,0.33333,0.26667,,,1,2.3331,2515.0046,NaN,4.8481046,4.8662415,4848.1046,4866.2415,18.1369,,,,,,,,
20130821T161643,4,36,158071.8639,63.2287,Stop,1,0.33333,0.26667,,,1,2.3331,3014.9945,NaN,5.3480945,5.365499,5348.0945,5365.499,17.4045,,,,,,,,
20130821T161643,4,37,163437.3629,65.3749,Go,0,,,,,4,2.1998,1998.3255,NaN,4.1981255,4.2162841,4198.1255,4216.2841,18.1586,,,,,,,,
20130821T161643,4,38,167653.647,67.0615,Go,0,,,,,4,2.1998,1498.3316,NaN,3.6981316,3.7171005,3698.1316,3717.1005,18.9689,,,,,,,,
20130821T161643,4,39,171370.7475,68.5483,Stop,1,0.35,0.25,,,1,2.3498,1998.3192,NaN,4.3481192,4.3655039,4348.1192,4365.5039,17.3847,,,,,,,,
20130821T161643,4,40,175736.2514,70.2945,Go,0,,,,,4,2.1998,1498.3332,NaN,3.6981332,3.7173183,3698.1332,3717.3183,19.1851,,,,,,,,
20130821T161643,4,41,179453.5697,71.7814,Stop,1,0.36667,0.23333,,,1,2.3665,2981.6706,NaN,5.3481706,5.3653752,5348.1706,5365.3752,17.2046,,,,,,,,
20130821T161643,4,42,184818.9449,73.9276,Go,0,,,,,4,2.1998,2498.3306,NaN,4.6981306,4.7169776,4698.1306,4716.9776,18.847,,,,,,,,
20130821T161643,4,43,189535.9225,75.8144,Stop,1,0.36667,0.23333,,,1,2.3665,1982.001,NaN,4.348501,4.3667567,4348.501,4366.7567,18.2557,,,,,,,,
20130821T161643,4,44,193902.6792,77.5611,Stop,1,0.33333,0.26667,,,1,2.3331,1514.9857,NaN,3.8480857,3.8650685,3848.0857,3865.0685,16.9828,,,,,,,,
20130821T161643,4,45,197767.7477,79.1071,Go,0,,,,,4,2.1998,2498.3364,NaN,4.6981364,4.7164234,4698.1364,4716.4234,18.287,,,,,,,,
20130821T161643,4,46,202484.1711,80.9937,Go,0,,,,,4,2.1998,2498.3511,NaN,4.6981511,4.7162578,4698.1511,4716.2578,18.1067,,,,,,,,
20130821T161643,4,47,207200.4289,82.8802,Go,0,,,,,4,2.1998,1998.3162,NaN,4.1981162,4.2161773,4198.1162,4216.1773,18.0611,,,,,,,,
20130821T161643,4,48,211416.6062,84.5666,Go,0,,,,,4,2.1998,2498.3539,NaN,4.6981539,4.7164869,4698.1539,4716.4869,18.333,,,,,,,,
20130821T161643,4,49,216133.0931,86.4532,Go,0,,,,,4,2.1998,2498.3828,NaN,4.6981828,4.7162602,4698.1828,4716.2602,18.0774,,,,,,,,
20130821T161643,4,50,220849.3533,88.3397,Go,0,,,,,4,2.1998,1498.3417,NaN,3.6981417,,3698.1417,,,,,,,,,,
,,,,,,,,,,,,,,,,,,,18.20105,,,,,,,,
